{
  "resourceType": "Bundle",
  "id": "stayhome-data",
  "type": "transaction",
  "entry": [
    {
      "resource": {
        "resourceType": "CarePlan",
        "id": "1058",
        "meta": {
          "versionId": "1",
          "lastUpdated": "2020-03-24T07:13:15.361+00:00"
        },
        "status": "active",
        "intent": "plan",
        "description": "Monitor symptoms",
        "period": {
          "start": "2020-03-01",
          "end": "2020-12-31"
        },
        "activity": [
          {
            "detail": {
              "instantiatesCanonical": [
                "Questionnaire/204"
              ],
              "reasonReference": [
                {
                  "reference": "DocumentReference/1307"
                },
                {
                  "reference": "DocumentReference/1308"
                },
                {
                  "reference": "DocumentReference/286"
                },
                {
                  "reference": "DocumentReference/275"
                },
                {
                  "reference": "DocumentReference/278"
                }
              ],
              "status": "scheduled",
              "doNotPerform": false,
              "scheduledTiming": {
                "repeat": {
                  "frequency": 1,
                  "period": 1,
                  "periodUnit": "d"
                }
              },
              "description": "Questionnaire"
            }
          },
          {
            "detail": {
              "instantiatesCanonical": [
                "Questionnaire/1057"
              ],
              "status": "scheduled",
              "doNotPerform": false,
              "description": "Exposure questionnaire"
            }
          },
          {
            "detail": {
              "instantiatesCanonical": [
                "Questionnaire/1376"
              ],
              "status": "scheduled",
              "doNotPerform": false,
              "description": "COVID-19 testing questionnaire"
            }
          },
          {
            "detail": {
              "instantiatesCanonical": [
                "Questionnaire/1442"
              ],
              "status": "scheduled",
              "doNotPerform": false,
              "description": "Pregnancy questionnaire"
            }
          }
        ]
      },
      "request": {
        "method": "PUT",
        "url": "CarePlan/1058"
      }
    },
    {
      "resource": {
        "resourceType": "DocumentReference",
        "id": "275",
        "meta": {
          "versionId": "1",
          "lastUpdated": "2020-03-18T18:13:38.856+00:00"
        },
        "status": "current",
        "description": "Seattle Mayor's Office Community Resources",
        "content": [
          {
            "attachment": {
              "url": "http://www.seattle.gov/mayor/covid-19"
            }
          }
        ]
      },
      "request": {
        "method": "PUT",
        "url": "DocumentReference/275"
      }
    },
    {
      "resource": {
        "resourceType": "DocumentReference",
        "id": "1307",
        "status": "current",
        "description": "StayHome Resources Page",
        "content": [
          {
            "attachment": {
              "url": "https://tiny.cc/covidlinks"
            }
          }
        ]
      },
      "request": {
        "method": "PUT",
        "url": "DocumentReference/1307"
      }
    },
    {
      "resource": {
        "resourceType": "DocumentReference",
        "id": "1308",
        "status": "current",
        "description": "Contact Us",
        "content": [
          {
            "attachment": {
              "url": "mailto:help@stayhome-app.on.spiceworks.com"
            }
          }
        ]
      },
      "request": {
        "method": "PUT",
        "url": "DocumentReference/1308"
      }
    },
    {
      "resource": {
        "resourceType": "DocumentReference",
        "id": "278",
        "meta": {
          "versionId": "2",
          "lastUpdated": "2020-03-18T23:49:51.243+00:00"
        },
        "status": "current",
        "description": "Preparing for Social Distancing",
        "content": [
          {
            "attachment": {
              "url": "https://www.washington.edu/news/2020/03/05/the-food-you-need-uw-expert-on-preparing-for-an-extended-home-stay/",
              "title": "Foods to stock for an extended home stay"
            }
          },
          {
            "attachment": {
              "url": "https://www.spl.org/",
              "title": "Seattle Public Library Online Media"
            }
          }
        ]
      },
      "request": {
        "method": "PUT",
        "url": "DocumentReference/278"
      }
    },
    {
      "resource": {
        "resourceType": "DocumentReference",
        "id": "286",
        "meta": {
          "versionId": "1",
          "lastUpdated": "2020-03-18T23:43:21.517+00:00"
        },
        "status": "current",
        "description": "COVID-19 Updates",
        "content": [
          {
            "attachment": {
              "url": "https://www.who.int/emergencies/diseases/novel-coronavirus-2019",
              "title": "World Health Organization"
            }
          },
          {
            "attachment": {
              "url": "https://www.cdc.gov/coronavirus/2019-ncov/about/index.html",
              "title": "Center for Disease Control"
            }
          },
          {
            "attachment": {
              "url": "https://www.kingcounty.gov/depts/health/communicable-diseases/disease-control/novel-coronavirus.aspx",
              "title": "King County Public Health"
            }
          }
        ]
      },
      "request": {
        "method": "PUT",
        "url": "DocumentReference/286"
      }
    },
    {
      "resource": {
        "resourceType": "Questionnaire",
        "id": "204",
        "meta": {
          "versionId": "14",
          "lastUpdated": "2020-03-24T18:19:56.330+00:00",
          "profile": [
            "http://hl7.org/fhir/uv/sdc/StructureDefinition/sdc-questionnaire|2.7"
          ]
        },
        "name": "Symptom Assessment",
        "title": "Symptom Assessment",
        "status": "active",
        "item": [
          {
            "linkId": "/info",
            "type": "display",
            "required": false,
            "item": [
              {
                "extension": [
                  {
                    "url": "http://hl7.org/fhir/StructureDefinition/questionnaire-itemControl",
                    "valueCodeableConcept": {
                      "coding": [
                        {
                          "system": "http://hl7.org/fhir/questionnaire-item-control",
                          "code": "help",
                          "display": "Help-Button"
                        }
                      ],
                      "text": "Help-Button"
                    }
                  }
                ],
                "linkId": "/info-help",
                "text": "All questions are optional.",
                "type": "display"
              }
            ]
          },
          {
            "linkId": "/70442-9",
            "code": [
              {
                "system": "http://loinc.org",
                "code": "70442-9",
                "display": "I have been coughing"
              }
            ],
            "text": "I recently started coughing",
            "type": "choice",
            "required": false,
            "answerOption": [
              {
                "extension": [
                  {
                    "url": "http://hl7.org/fhir/StructureDefinition/ordinalValue",
                    "valueDecimal": 0
                  }
                ],
                "valueCoding": {
                  "code": "LA6568-5",
                  "display": "Not at all"
                }
              },
              {
                "extension": [
                  {
                    "url": "http://hl7.org/fhir/StructureDefinition/ordinalValue",
                    "valueDecimal": 2
                  }
                ],
                "valueCoding": {
                  "code": "LA13909-9",
                  "display": "Somewhat"
                }
              },
              {
                "extension": [
                  {
                    "url": "http://hl7.org/fhir/StructureDefinition/ordinalValue",
                    "valueDecimal": 4
                  }
                ],
                "valueCoding": {
                  "code": "LA13914-9",
                  "display": "Very much"
                }
              }
            ]
          },
          {
            "linkId": "/70305-8",
            "code": [
              {
                "system": "http://loinc.org",
                "code": "70305-8",
                "display": "I have been short of breath"
              }
            ],
            "text": "I recently have been wheezing or short of breath",
            "type": "choice",
            "required": false,
            "answerOption": [
              {
                "extension": [
                  {
                    "url": "http://hl7.org/fhir/StructureDefinition/ordinalValue",
                    "valueDecimal": 0
                  }
                ],
                "valueCoding": {
                  "code": "LA6568-5",
                  "display": "Not at all"
                }
              },
              {
                "extension": [
                  {
                    "url": "http://hl7.org/fhir/StructureDefinition/ordinalValue",
                    "valueDecimal": 2
                  }
                ],
                "valueCoding": {
                  "code": "LA13909-9",
                  "display": "Somewhat"
                }
              },
              {
                "extension": [
                  {
                    "url": "http://hl7.org/fhir/StructureDefinition/ordinalValue",
                    "valueDecimal": 4
                  }
                ],
                "valueCoding": {
                  "code": "LA13914-9",
                  "display": "Very much"
                }
              }
            ]
          },
          {
            "linkId": "/sense_of_smell",
            "code": [
              {
                "system": "Custom",
                "code": "sense_of_smell",
                "display": "My sense of smell or taste is"
              }
            ],
            "text": "My sense of smell or taste is",
            "type": "choice",
            "required": false,
            "answerOption": [
              {
                "extension": [
                  {
                    "url": "http://hl7.org/fhir/StructureDefinition/ordinalValue",
                    "valueDecimal": 0
                  }
                ],
                "valueCoding": {
                  "system": "Custom",
                  "code": "normal",
                  "display": "Normal"
                }
              },
              {
                "extension": [
                  {
                    "url": "http://hl7.org/fhir/StructureDefinition/ordinalValue",
                    "valueDecimal": 1
                  }
                ],
                "valueCoding": {
                  "system": "Custom",
                  "code": "decreased",
                  "display": "Decreased"
                }
              },
              {
                "extension": [
                  {
                    "url": "http://hl7.org/fhir/StructureDefinition/ordinalValue",
                    "valueDecimal": 2
                  }
                ],
                "valueCoding": {
                  "system": "Custom",
                  "code": "completely_gone",
                  "display": "Completely gone"
                }
              }
            ]
          },
          {
            "linkId": "/70421-3",
            "code": [
              {
                "system": "http://loinc.org",
                "code": "70421-3",
                "display": "I have had fevers (episodes of high body temperature)"
              }
            ],
            "text": "I have felt feverish (had episodes of high body temperature)",
            "type": "choice",
            "required": false,
            "answerOption": [
              {
                "extension": [
                  {
                    "url": "http://hl7.org/fhir/StructureDefinition/ordinalValue",
                    "valueDecimal": 0
                  }
                ],
                "valueCoding": {
                  "code": "LA6568-5",
                  "display": "Not at all"
                }
              },
              {
                "extension": [
                  {
                    "url": "http://hl7.org/fhir/StructureDefinition/ordinalValue",
                    "valueDecimal": 2
                  }
                ],
                "valueCoding": {
                  "code": "LA13909-9",
                  "display": "Somewhat"
                }
              },
              {
                "extension": [
                  {
                    "url": "http://hl7.org/fhir/StructureDefinition/ordinalValue",
                    "valueDecimal": 4
                  }
                ],
                "valueCoding": {
                  "code": "LA13914-9",
                  "display": "Very much"
                }
              }
            ]
          },
          {
            "extension": [
              {
                "url": "http://hl7.org/fhir/StructureDefinition/questionnaire-unit",
                "valueCoding": {
                  "display": "[degF]"
                }
              }
            ],
            "linkId": "/8310-5",
            "code": [
              {
                "system": "http://loinc.org",
                "code": "8310-5",
                "display": "Temperature"
              }
            ],
            "text": "Temperature if taken by thermometer",
            "type": "decimal",
            "required": false
          },
          {
            "linkId": "/comment",
            "code": [
              {
                "system": "Custom",
                "code": "comment",
                "display": "Comments"
              }
            ],
            "text": "Comments",
            "type": "string",
            "required": false
          },
          {
            "linkId": "/exposure_info",
            "type": "display",
            "required": false,
            "item": [
              {
                "extension": [
                  {
                    "url": "http://hl7.org/fhir/StructureDefinition/questionnaire-itemControl",
                    "valueCodeableConcept": {
                      "coding": [
                        {
                          "system": "http://hl7.org/fhir/questionnaire-item-control",
                          "code": "help",
                          "display": "Help-Button"
                        }
                      ],
                      "text": "Help-Button"
                    }
                  }
                ],
                "linkId": "/exposure_info-help",
                "text": "If you have had a possible or known exposure to a person infected with COVID-19, or if you have traveled within the last two weeks, please enter that information in “enter possible exposure or travel”.",
                "type": "display"
              }
            ]
          }
        ]
      },
      "request": {
        "method": "PUT",
        "url": "Questionnaire/204"
      }
    },
    {
      "resource": {
        "resourceType": "Questionnaire",
        "id": "1057",
        "meta": {
          "versionId": "1",
          "lastUpdated": "2020-03-24T21:13:56.489+00:00",
          "source": "#pUhjfpGEFQIXdgfB",
          "profile": [
            "http://hl7.org/fhir/uv/sdc/StructureDefinition/sdc-questionnaire|2.7"
          ]
        },
        "title": "Enter travel or possible exposure",
        "status": "active",
        "item": [
          {
            "linkId": "/info",
            "type": "display",
            "required": false,
            "item": [
              {
                "extension": [
                  {
                    "url": "http://hl7.org/fhir/StructureDefinition/questionnaire-itemControl",
                    "valueCodeableConcept": {
                      "coding": [
                        {
                          "system": "http://hl7.org/fhir/questionnaire-item-control",
                          "code": "help",
                          "display": "Help-Button"
                        }
                      ],
                      "text": "Help-Button"
                    }
                  }
                ],
                "linkId": "/info-help",
                "text": "All questions are optional.",
                "type": "display"
              }
            ]
          },
          {
            "linkId": "/when",
            "code": [
              {
                "system": "Custom",
                "code": "when",
                "display": "When"
              }
            ],
            "text": "When",
            "type": "display",
            "required": false,
            "item": [
              {
                "extension": [
                  {
                    "url": "http://hl7.org/fhir/StructureDefinition/questionnaire-itemControl",
                    "valueCodeableConcept": {
                      "coding": [
                        {
                          "system": "http://hl7.org/fhir/questionnaire-item-control",
                          "code": "help",
                          "display": "Help-Button"
                        }
                      ],
                      "text": "Help-Button"
                    }
                  }
                ],
                "linkId": "/when-help",
                "text": "Enter start date and, if relevant, end date. Then, fill in the applicable section(s) below.",
                "type": "display"
              }
            ]
          },
          {
            "linkId": "/date",
            "code": [
              {
                "system": "Custom",
                "code": "date",
                "display": "Start date"
              }
            ],
            "text": "Start date",
            "type": "date",
            "required": false
          },
          {
            "linkId": "/end_date",
            "code": [
              {
                "system": "Custom",
                "code": "end_date",
                "display": "End date (optional)"
              }
            ],
            "text": "End date (optional)",
            "type": "date",
            "required": false
          },
          {
            "linkId": "/exposure",
            "code": [
              {
                "system": "Custom",
                "code": "exposure",
                "display": "Record exposure"
              }
            ],
            "text": "Record exposure",
            "type": "display",
            "required": false
          },
          {
            "linkId": "/what_happened",
            "code": [
              {
                "system": "Custom",
                "code": "what_happened",
                "display": "What happened?"
              }
            ],
            "text": "What happened?",
            "type": "string",
            "required": false,
            "item": [
              {
                "extension": [
                  {
                    "url": "http://hl7.org/fhir/StructureDefinition/questionnaire-itemControl",
                    "valueCodeableConcept": {
                      "coding": [
                        {
                          "system": "http://hl7.org/fhir/questionnaire-item-control",
                          "code": "help",
                          "display": "Help-Button"
                        }
                      ],
                      "text": "Help-Button"
                    }
                  }
                ],
                "linkId": "/what_happened-help",
                "text": "Someone on the bus sneezed on you, you visited with someone later determined to be ill, etc.",
                "type": "display"
              }
            ]
          },
          {
            "linkId": "/exposure_confidence",
            "code": [
              {
                "system": "Custom",
                "code": "exposure_confidence",
                "display": "How confident are you that you were exposed?"
              }
            ],
            "text": "How confident are you that you were exposed?",
            "type": "choice",
            "required": false,
            "answerOption": [
              {
                "extension": [
                  {
                    "url": "http://hl7.org/fhir/StructureDefinition/ordinalValue",
                    "valueDecimal": 0
                  }
                ],
                "valueCoding": {
                  "system": "Custom",
                  "code": "possible",
                  "display": "Possible"
                }
              },
              {
                "extension": [
                  {
                    "url": "http://hl7.org/fhir/StructureDefinition/ordinalValue",
                    "valueDecimal": 1
                  }
                ],
                "valueCoding": {
                  "system": "Custom",
                  "code": "likely",
                  "display": "Likely"
                }
              },
              {
                "extension": [
                  {
                    "url": "http://hl7.org/fhir/StructureDefinition/ordinalValue",
                    "valueDecimal": 2
                  }
                ],
                "valueCoding": {
                  "system": "Custom",
                  "code": "certain",
                  "display": "Certain"
                }
              }
            ]
          },
          {
            "linkId": "/travel",
            "code": [
              {
                "system": "Custom",
                "code": "travel",
                "display": "Record travel"
              }
            ],
            "text": "Record travel",
            "type": "display",
            "required": false
          },
          {
            "linkId": "/travel/travel_destination_free_text",
            "code": [
              {
                "system": "Custom",
                "code": "travel_destination_free_text",
                "display": "Free text travel destination"
              }
            ],
            "text": "Location",
            "type": "string",
            "required": false,
            "item": [
              {
                "extension": [
                  {
                    "url": "http://hl7.org/fhir/StructureDefinition/questionnaire-itemControl",
                    "valueCodeableConcept": {
                      "coding": [
                        {
                          "system": "http://hl7.org/fhir/questionnaire-item-control",
                          "code": "help",
                          "display": "Help-Button"
                        }
                      ],
                      "text": "Help-Button"
                    }
                  }
                ],
                "linkId": "/travel/travel_destination_free_text-help",
                "text": "What location(s) did you visit? Include any details such as city, state, country, zip or postal code, ...",
                "type": "display"
              }
            ]
          },
          {
            "linkId": "/any_known_exposure",
            "code": [
              {
                "system": "Custom",
                "code": "any_known_exposure",
                "display": "Any known exposure to individuals with coughing, shortness of breath, or fever when traveling? If yes, describe."
              }
            ],
            "text": "Any known exposure to individuals with coughing, shortness of breath, or fever when traveling? If yes, describe.",
            "type": "string",
            "required": false
          }
        ]
      },
      "request": {
        "method": "PUT",
        "url": "Questionnaire/1057"
      }
    },
    {
      "resource": {
        "resourceType": "Questionnaire",
        "id": "1376",
        "title": "COVID-19 testing",
        "status": "active",
        "item": [
          {
            "linkId": "/form_info",
            "code": [
              {
                "system": "Custom",
                "code": "form_info"
              }
            ],
            "type": "display",
            "required": false,
            "item": [
              {
                "extension": [
                  {
                    "url": "http://hl7.org/fhir/StructureDefinition/questionnaire-itemControl",
                    "valueCodeableConcept": {
                      "coding": [
                        {
                          "system": "http://hl7.org/fhir/questionnaire-item-control",
                          "code": "help",
                          "display": "Help-Button"
                        }
                      ],
                      "text": "Help-Button"
                    }
                  }
                ],
                "linkId": "/form_info-help",
                "text": "You can fill this out each time you are tested, and each time you receive a result. If you are sharing your information, having the result may be important when combined with your symptoms and other information.",
                "type": "display"
              }
            ]
          },
          {
            "linkId": "/testing_information",
            "code": [
              {
                "system": "Custom",
                "code": "testing_information",
                "display": "I was tested:"
              }
            ],
            "text": "I was tested:",
            "type": "display",
            "required": false
          },
          {
            "linkId": "/testing_date",
            "code": [
              {
                "system": "Custom",
                "code": "testing_date",
                "display": "When"
              }
            ],
            "text": "When",
            "type": "date",
            "required": false
          },
          {
            "linkId": "/clinic_or_test_site_name",
            "code": [
              {
                "system": "Custom",
                "code": "clinic_or_test_site_name",
                "display": "Where"
              }
            ],
            "text": "Where",
            "type": "string",
            "required": false,
            "item": [
              {
                "extension": [
                  {
                    "url": "http://hl7.org/fhir/StructureDefinition/questionnaire-itemControl",
                    "valueCodeableConcept": {
                      "coding": [
                        {
                          "system": "http://hl7.org/fhir/questionnaire-item-control",
                          "code": "help",
                          "display": "Help-Button"
                        }
                      ],
                      "text": "Help-Button"
                    }
                  }
                ],
                "linkId": "/clinic_or_test_site_name-help",
                "text": "Clinic/site, city/location",
                "type": "display"
              }
            ]
          },
          {
            "linkId": "/type_of_test",
            "code": [
              {
                "system": "Custom",
                "code": "type_of_test",
                "display": "Type of test"
              }
            ],
            "text": "Type of test",
            "type": "choice",
            "required": false,
            "answerOption": [
              {
                "valueCoding": {
                  "system": "Custom",
                  "code": "nasal_swab",
                  "display": "Nasal swab"
                }
              },
              {
                "valueCoding": {
                  "system": "Custom",
                  "code": "blood_test",
                  "display": "Blood test"
                }
              },
              {
                "valueCoding": {
                  "system": "Custom",
                  "code": "other",
                  "display": "Other (see comments)"
                }
              }
            ],
            "item": [
              {
                "extension": [
                  {
                    "url": "http://hl7.org/fhir/StructureDefinition/questionnaire-itemControl",
                    "valueCodeableConcept": {
                      "coding": [
                        {
                          "system": "http://hl7.org/fhir/questionnaire-item-control",
                          "code": "help",
                          "display": "Help-Button"
                        }
                      ],
                      "text": "Help-Button"
                    }
                  }
                ],
                "linkId": "/type_of_test-help",
                "text": "The nasal swab test is used to show whether you currently are infected with the virus (antigen test) . The blood (antibody) test is used to show if you were previously infected. Neither test is completely accurate, and they measure different things.",
                "type": "display"
              }
            ]
          },
          {
            "linkId": "/test_result_if_known",
            "code": [
              {
                "system": "Custom",
                "code": "test_result_if_known",
                "display": "My result was:"
              }
            ],
            "text": "My result was:",
            "type": "choice",
            "required": false,
            "answerOption": [
              {
                "valueCoding": {
                  "system": "Custom",
                  "code": "positive",
                  "display": "Positive"
                }
              },
              {
                "valueCoding": {
                  "system": "Custom",
                  "code": "negative",
                  "display": "Negative"
                }
              },
              {
                "valueCoding": {
                  "system": "Custom",
                  "code": "inconclusive",
                  "display": "Inconclusive"
                }
              },
              {
                "valueCoding": {
                  "system": "Custom",
                  "code": "pending",
                  "display": "Pending"
                }
              }
            ],
            "item": [
              {
                "extension": [
                  {
                    "url": "http://hl7.org/fhir/StructureDefinition/questionnaire-itemControl",
                    "valueCodeableConcept": {
                      "coding": [
                        {
                          "system": "http://hl7.org/fhir/questionnaire-item-control",
                          "code": "help",
                          "display": "Help-Button"
                        }
                      ],
                      "text": "Help-Button"
                    }
                  }
                ],
                "linkId": "/test_result_if_known-help",
                "text": "Answer \"positive\" if your test shows that you have, or had, the virus. Answer \"negative\" if your test shows that you do/did not have the virus. You can also indicate if your test was inconclusive (which is uncommon), or if you are still awaiting the test result.",
                "type": "display"
              }
            ]
          },
          {
            "linkId": "/test_result_comments",
            "code": [
              {
                "system": "Custom",
                "code": "comments",
                "display": "Comments"
              }
            ],
            "text": "Comments",
            "type": "string",
            "required": false
          }
        ]
      },
      "request": {
        "method": "PUT",
        "url": "Questionnaire/1376"
      }
    },
    {
      "resource": {
        "status": "active",
        "title": "At-risk conditions",
        "resourceType": "Questionnaire",
        "meta": {
          "profile": [
            "http://hl7.org/fhir/uv/sdc/StructureDefinition/sdc-questionnaire|2.7"
          ],
          "tag": [
            {
              "display": "lformsVersion: 21.2.1"
            }
          ]
        },
        "item": [
          {
            "linkId": "/form_intro",
            "type": "display",
            "code": [
              {
                "code": "form_intro",
                "system": "Custom"
              }
            ],
            "required": false,
            "item": [
              {
                "text": "We’d like to know about conditions that may increase your COVID-19 risk. All questions are optional; you can answer as many or as few as you would like. If you do provide this information it may be useful for public health planning.",
                "type": "display",
                "linkId": "/form_info-help",
                "extension": [
                  {
                    "url": "http://hl7.org/fhir/StructureDefinition/questionnaire-itemControl",
                    "valueCodeableConcept": {
                      "text": "Help-Button",
                      "coding": [
                        {
                          "code": "help",
                          "display": "Help-Button",
                          "system": "http://hl7.org/fhir/questionnaire-item-control"
                        }
                      ]
                    }
                  }
                ]
              }
            ]
          },
          {
            "linkId": "/form_section_healthcare_worker_questions",
            "type": "display",
            "code": [
              {
                "code": "form_section_healthcare_worker_questions",
                "display": "Healthcare worker questions",
                "system": "Custom"
              }
            ],
            "required": false,
            "text": "Healthcare worker questions"
          },
          {
            "linkId": "/are_you_a_healthcare_worker",
            "type": "choice",
            "code": [
              {
                "code": "are_you_a_healthcare_worker",
                "display": "Are you a healthcare worker?",
                "system": "Custom"
              }
            ],
            "required": false,
            "text": "Are you a healthcare worker?",
            "answerOption": [
              {
                "valueCoding": {
                  "code": "LA33-6",
                  "display": "Yes",
                  "system": "https://loinc.org/"
                }
              },
              {
                "valueCoding": {
                  "code": "LA32-8",
                  "display": "No",
                  "system": "https://loinc.org/"
                }
              }
            ]
          },
          {
            "linkId": "/are_you_actively_seeing_patients",
            "type": "choice",
            "code": [
              {
                "code": "are_you_actively_seeing_patients",
                "display": "Are you actively seeing patients?",
                "system": "Custom"
              }
            ],
            "required": false,
            "text": "Are you actively seeing patients?",
            "answerOption": [
              {
                "valueCoding": {
                  "code": "LA33-6",
                  "display": "Yes",
                  "system": "https://loinc.org/"
                }
              },
              {
                "valueCoding": {
                  "code": "LA32-8",
                  "display": "No",
                  "system": "https://loinc.org/"
                }
              }
            ]
          },
          {
            "linkId": "/what_is_your_role",
            "type": "string",
            "code": [
              {
                "code": "what_is_your_role",
                "display": "What is your role?",
                "system": "Custom"
              }
            ],
            "required": false,
            "text": "What is your role?"
          },
          {
            "linkId": "/what_setting_do_you_work_in",
            "type": "string",
            "code": [
              {
                "code": "what_setting_do_you_work_in",
                "display": "What setting do you work in?",
                "system": "Custom"
              }
            ],
            "required": false,
            "text": "What setting do you work in?"
          },
          {
            "linkId": "/form_section_chronic_health_conditions",
            "type": "display",
            "code": [
              {
                "code": "form_section_chronic_health_conditions",
                "display": "Chronic health conditions",
                "system": "Custom"
              }
            ],
            "required": false,
            "text": "Chronic health conditions"
          },
          {
            "linkId": "/do_you_have_any_chronic_health_conditions",
            "type": "choice",
            "code": [
              {
                "code": "do_you_have_any_chronic_health_conditions",
                "display": "Do you have any chronic health conditions, such as diabetes, asthma, or high blood pressure?",
                "system": "Custom"
              }
            ],
            "required": false,
            "text": "Do you have any chronic health conditions, such as diabetes, asthma, or high blood pressure?",
            "answerOption": [
              {
                "valueCoding": {
                  "code": "LA33-6",
                  "display": "Yes",
                  "system": "https://loinc.org/"
                }
              },
              {
                "valueCoding": {
                  "code": "LA32-8",
                  "display": "No",
                  "system": "https://loinc.org/"
                }
              }
            ]
          },
          {
            "linkId": "/would_you_like_to_tell_us_chronic_health_conditions",
            "type": "choice",
            "code": [
              {
                "code": "would_you_like_to_tell_us_chronic_health_conditions",
                "display": "Would you like to tell us what chronic health condition(s) you have?",
                "system": "Custom"
              }
            ],
            "required": false,
            "text": "Would you like to tell us what chronic health condition(s) you have?",
            "answerOption": [
              {
                "valueCoding": {
                  "code": "LA33-6",
                  "display": "Yes",
                  "system": "https://loinc.org/"
                }
              },
              {
                "valueCoding": {
                  "code": "LA32-8",
                  "display": "No",
                  "system": "https://loinc.org/"
                }
              }
            ]
          },
          {
            "linkId": "/what_chronic_condition_do_you_have",
            "type": "string",
            "code": [
              {
                "code": "what_chronic_condition_do_you_have",
                "display": "What chronic health condition(s) do you have?",
                "system": "Custom"
              }
            ],
            "required": false,
            "text": "What chronic health condition(s) do you have?"
          },
          {
            "linkId": "/form_section_immunocompromised_conditions_questions",
            "type": "display",
            "code": [
              {
                "code": "form_section_immunocompromised_conditions_questions",
                "display": "Immunocompromised conditions",
                "system": "Custom"
              }
            ],
            "required": false,
            "text": "Immunocompromised conditions"
          },
          {
            "linkId": "/are_you_at_an_increased_risk_of_getting_an_infection",
            "type": "choice",
            "code": [
              {
                "code": "are_you_at_an_increased_risk_of_getting_an_infection",
                "display": "Are you at an increased risk of getting an infection, cold, or fever due to a health condition or medical treatment?",
                "system": "Custom"
              }
            ],
            "required": false,
            "text": "Are you at an increased risk of getting an infection, cold, or fever due to a health condition or medical treatment?",
            "answerOption": [
              {
                "valueCoding": {
                  "code": "LA33-6",
                  "display": "Yes",
                  "system": "https://loinc.org/"
                }
              },
              {
                "valueCoding": {
                  "code": "LA32-8",
                  "display": "No",
                  "system": "https://loinc.org/"
                }
              }
            ]
          },
          {
            "linkId": "/would_you_like_to_tell_us_immunocompromised_conditions",
            "type": "choice",
            "code": [
              {
                "code": "would_you_like_to_tell_us_immunocompromised_conditions",
                "display": "Would you like to tell us what condition or treatment increases your risk for infection, cold, or fever?",
                "system": "Custom"
              }
            ],
            "required": false,
            "text": "Would you like to tell us what condition or treatment increases your risk for infection, cold, or fever?",
            "answerOption": [
              {
                "valueCoding": {
                  "code": "LA33-6",
                  "display": "Yes",
                  "system": "https://loinc.org/"
                }
              },
              {
                "valueCoding": {
                  "code": "LA32-8",
                  "display": "No",
                  "system": "https://loinc.org/"
                }
              }
            ]
          },
          {
            "linkId": "/what_condition_or_treatment_increases_your_risk",
            "type": "string",
            "code": [
              {
                "code": "what_condition_or_treatment_increases_your_risk",
                "display": "What condition or treatment increases your risk for infection, cold, or fever?",
                "system": "Custom"
              }
            ],
            "required": false,
            "text": "What condition or treatment increases your risk for infection, cold, or fever?"
          },
          {
            "linkId": "/form_section_pregnancy_status",
            "type": "display",
            "code": [
              {
                "code": "form_section_pregnancy_status",
                "display": "Pregnancy status / Recent birth",
                "system": "Custom"
              }
            ],
            "required": false,
            "text": "Pregnancy status / Recent birth"
          },
          {
            "linkId": "/are_you_currently_pregnant",
            "type": "choice",
            "code": [
              {
                "code": "are_you_currently_pregnant",
                "display": "Are you currently pregnant?",
                "system": "Custom"
              }
            ],
            "required": false,
            "text": "Are you currently pregnant?",
            "answerOption": [
              {
                "valueCoding": {
                  "code": "LA33-6",
                  "display": "Yes",
                  "system": "https://loinc.org/"
                }
              },
              {
                "valueCoding": {
                  "code": "LA32-8",
                  "display": "No",
                  "system": "https://loinc.org/"
                }
              }
            ]
          },
          {
            "linkId": "/when_is_your_due_date",
            "code": [
              {
                "system": "Custom",
                "code": "when_is_your_due_date",
                "display": "When is your due date?"
              }
            ],
            "text": "When is your due date?",
            "type": "date",
            "required": false
          },
          {
            "linkId": "/have_you_recently_given_birth",
            "type": "choice",
            "code": [
              {
                "code": "have_you_recently_given_birth",
                "display": "Have you recently given birth?",
                "system": "Custom"
              }
            ],
            "required": false,
            "text": "Have you recently given birth?",
            "answerOption": [
              {
                "valueCoding": {
                  "code": "LA33-6",
                  "display": "Yes",
                  "system": "https://loinc.org/"
                }
              },
              {
                "valueCoding": {
                  "code": "LA32-8",
                  "display": "No",
                  "system": "https://loinc.org/"
                }
              }
            ]
          },
          {
            "linkId": "/when_did_you_give_birth",
            "code": [
              {
                "system": "Custom",
                "code": "when_did_you_give_birth",
                "display": "When did you give birth?"
              }
            ],
            "text": "When did you give birth?",
            "type": "date",
            "required": false
          },
          {
            "linkId": "/have_you_had_any_fever_during_or_after_pregnancy",
            "type": "choice",
            "code": [
              {
                "code": "have_you_had_any_fever_during_or_after_pregnancy",
                "display": "Have you had any fever, cough, or shortness of breath during your pregnancy or in the first six weeks after giving birth?",
                "system": "Custom"
              }
            ],
            "required": false,
            "text": "Have you had any fever, cough, or shortness of breath during your pregnancy or in the first six weeks after giving birth?",
            "answerOption": [
              {
                "valueCoding": {
                  "code": "LA33-6",
                  "display": "Yes",
                  "system": "https://loinc.org/"
                }
              },
              {
                "valueCoding": {
                  "code": "LA32-8",
                  "display": "No",
                  "system": "https://loinc.org/"
                }
              }
            ]
          },
          {
            "linkId": "/when_did_you_have_fever",
            "code": [
              {
                "system": "Custom",
                "code": "when_did_you_have_fever",
                "display": "When did you have fever, cough, or shortness of breath?"
              }
            ],
            "text": "When did you have fever, cough, or shortness of breath?",
            "type": "date",
            "required": false
          },
          {
            "linkId": "/have_you_ever_tested_positive_for_covid19_during_or_after_pregnancy",
            "type": "choice",
            "code": [
              {
                "code": "have_you_ever_tested_positive_for_covid19_during_or_after_pregnancy",
                "display": "Have you ever tested positive for coronavirus (COVID-19) during your pregnancy or in the first six weeks after giving birth?",
                "system": "Custom"
              }
            ],
            "required": false,
            "text": "Have you ever tested positive for coronavirus (COVID-19) during your pregnancy or in the first six weeks after giving birth?",
            "answerOption": [
              {
                "valueCoding": {
                  "code": "LA33-6",
                  "display": "Yes",
                  "system": "https://loinc.org/"
                }
              },
              {
                "valueCoding": {
                  "code": "LA32-8",
                  "display": "No",
                  "system": "https://loinc.org/"
                }
              }
            ]
          },
          {
            "linkId": "/were_you_admitted_to_the_hospital_bc_covid19_during_or_after_pregnancy",
            "type": "choice",
            "code": [
              {
                "code": "were_you_admitted_to_the_hospital_bc_covid19_during_or_after_pregnancy",
                "display": "Were you ever admitted to the hospital because of having coronavirus (COVID-19) during your pregnancy or in the first six weeks after giving birth?",
                "system": "Custom"
              }
            ],
            "required": false,
            "text": "Were you ever admitted to the hospital because of having coronavirus (COVID-19) during your pregnancy or in the first six weeks after giving birth?",
            "answerOption": [
              {
                "valueCoding": {
                  "code": "LA33-6",
                  "display": "Yes",
                  "system": "https://loinc.org/"
                }
              },
              {
                "valueCoding": {
                  "code": "LA32-8",
                  "display": "No",
                  "system": "https://loinc.org/"
                }
              }
            ]
          }
        ]
      },
      "request": {
        "method": "PUT",
        "url": "Questionnaire/1442"
      }
    },
    {
      "resource": {
        "resourceType": "Communication",
        "id": "57",
        "meta": {
          "versionId": "1",
          "lastUpdated": "2020-03-25T02:24:54.336+00:00"
        },
        "text": {
          "status": "generated"
        },
        "status": "in-progress",
        "category": [
          {
            "coding": [
              {
                "system": "http://terminology.hl7.org/CodeSystem/communication-category",
                "code": "alert"
              }
            ]
          }
        ],
        "priority": "routine",
        "payload": [
          {
            "contentString": "Welcome to StayHome! We're glad you're here.\n- Keep an eye on this space for messages\n- Dismiss them with the “Dismiss” button\n- Find new and old messages in the Menu under Communications"
          }
        ]
      },
      "request": {
        "method": "PUT",
        "url": "Communication/57"
      }
    }
  ]
}
